Folder: 2014_zhang/Figures/10-13-09 ESEM

Note: README
2014 thesis by Klaus Zhang for a M.S. in EE at UNO

File: Inner Shell 1 1000x.txt
#FORMAT      : EMSA/MAS Spectral Data File
#VERSION     : 1.0
#TITLE       : Inner Shell 1 1000x
#DATE        : 13-OCT-2009
#TIME        : 14:30
#OWNER       :
#NPOINTS     : 1024.
#NCOLUMNS    : 1.
#XUNITS      : keV
#YUNITS      : counts
#DATATYPE    : XY
#XPERCHAN    : 0.0100000
#OFFSET      : -0.100000
#SIGNALTYPE  : EDS
#CHOFFSET    : 10.0000
#LIVETIME    : 60
#REALTIME    : 61.058
#BEAMKV      : 20.0000
#PROBECUR    : 0.000000
#MAGCAM      : 473.000
#XPOSITION mm: 0.0000
#YPOSITION mm: 0.0000
#ZPOSITION mm: 0.0000
##OXINSTELEMS: 6,8,11,13,14,19,20,29
##OXINSTLABEL: 8, 0.525, O
##OXINSTLABEL: 14, 1.740, Si
##OXINSTLABEL: 6, 0.277, C
##OXINSTLABEL: 11, 1.041, Na
##OXINSTLABEL: 13, 1.487, Al
##OXINSTLABEL: 29, 8.048, Cu
##OXINSTLABEL: 29, 8.905, Cu
##OXINSTLABEL: 29, 0.930, Cu
##OXINSTLABEL: 29, 0.832, Cu
##OXINSTLABEL: 29, 0.811, Cu
##OXINSTLABEL: 19, 3.314, K
##OXINSTLABEL: 19, 3.590, K
##OXINSTLABEL: 19, 0.262, K
##OXINSTLABEL: 20, 3.692, Ca
##OXINSTLABEL: 20, 4.013, Ca
##OXINSTLABEL: 20, 0.341, Ca
##OXINSTLABEL: 20, 0.306, Ca
#SPECTRUM    : Spectral Data Starts Here
-0.100, 0.
-0.060, 93.
-0.020, 757.
0.020, 1532.
0.060, 1099.
0.100, 155.
0.140, 4.
0.180, 5.
0.220, 16.
0.260, 25.
0.300, 16.
0.340, 9.
0.380, 4.
0.420, 28.
0.460, 92.
0.500, 242.
0.540, 248.
0.580, 68.
0.620, 10.
0.660, 3.
0.700, 5.
0.740, 2.
0.780, 6.
0.820, 6.
0.860, 8.
0.900, 8.
0.940, 8.
0.980, 12.
1.020, 18.
1.060, 19.
1.100, 12.
1.140, 6.
1.180, 7.
1.220, 8.
1.260, 9.
1.300, 14.
1.340, 10.
1.380, 7.
1.420, 11.
1.460, 15.
1.500, 22.
1.540, 17.
1.580, 14.
1.620, 27.
1.660, 106.
1.700, 399.
1.740, 687.
1.780, 438.
1.820, 139.
1.860, 25.
1.900, 13.
1.940, 7.
1.980, 8.
2.020, 4.
2.060, 4.
2.100, 1.
2.140, 6.
2.180, 4.
2.220, 3.
2.260, 6.
2.300, 5.
2.340, 6.
2.380, 5.
2.420, 4.
2.460, 4.
2.500, 6.
2.540, 5.
2.580, 5.
2.620, 6.
2.660, 6.
2.700, 5.
2.740, 7.
2.780, 6.
2.820, 3.
2.860, 4.
2.900, 5.
2.940, 3.
2.980, 4.
3.020, 3.
3.060, 5.
3.100, 4.
3.140, 4.
3.180, 5.
3.220, 6.
3.260, 9.
3.300, 6.
3.340, 8.
3.380, 8.
3.420, 7.
3.460, 6.
3.500, 3.
3.540, 4.
3.580, 7.
3.620, 5.
3.660, 7.
3.700, 10.
3.740, 7.
3.780, 3.
3.820, 5.
3.860, 4.
3.900, 4.
3.940, 3.
3.980, 5.
4.020, 5.
4.060, 2.
4.100, 5.
4.140, 6.
4.180, 3.
4.220, 5.
4.260, 3.
4.300, 3.
4.340, 3.
4.380, 2.
4.420, 3.
4.460, 4.
4.500, 3.
4.540, 3.
4.580, 5.
4.620, 3.
4.660, 6.
4.700, 1.
4.740, 2.
4.780, 2.
4.820, 2.
4.860, 4.
4.900, 3.
4.940, 2.
4.980, 2.
5.020, 3.
5.060, 5.
5.100, 5.
5.140, 0.
5.180, 2.
5.220, 5.
5.260, 2.
5.300, 4.
5.340, 4.
5.380, 4.
5.420, 2.
5.460, 6.
5.500, 1.
5.540, 3.
5.580, 1.
5.620, 2.
5.660, 1.
5.700, 2.
5.740, 0.
5.780, 4.
5.820, 4.
5.860, 2.
5.900, 4.
5.940, 2.
5.980, 3.
6.020, 2.
6.060, 2.
6.100, 3.
6.140, 3.
6.180, 2.
6.220, 5.
6.260, 3.
6.300, 3.
6.340, 4.
6.380, 3.
6.420, 6.
6.460, 3.
6.500, 3.
6.540, 4.
6.580, 2.
6.620, 3.
6.660, 1.
6.700, 1.
6.740, 3.
6.780, 3.
6.820, 4.
6.860, 2.
6.900, 2.
6.940, 3.
6.980, 2.
7.020, 1.
7.060, 5.
7.100, 1.
7.140, 1.
7.180, 1.
7.220, 1.
7.260, 0.
7.300, 0.
7.340, 0.
7.380, 2.
7.420, 1.
7.460, 0.
7.500, 1.
7.540, 3.
7.580, 1.
7.620, 1.
7.660, 2.
7.700, 2.
7.740, 1.
7.780, 3.
7.820, 3.
7.860, 1.
7.900, 1.
7.940, 4.
7.980, 6.
8.020, 2.
8.060, 2.
8.100, 3.
8.140, 3.
8.180, 1.
8.220, 0.
8.260, 3.
8.300, 2.
8.340, 2.
8.380, 2.
8.420, 1.
8.460, 2.
8.500, 2.
8.540, 0.
8.580, 2.
8.620, 1.
8.660, 4.
8.700, 1.
8.740, 1.
8.780, 1.
8.820, 3.
8.860, 2.
8.900, 1.
8.940, 2.
8.980, 2.
9.020, 0.
9.060, 0.
9.100, 1.
9.140, 0.
9.180, 1.
9.220, 0.
9.260, 2.
9.300, 1.
9.340, 3.
9.380, 1.
9.420, 0.
9.460, 1.
9.500, 1.
9.540, 1.
9.580, 1.
9.620, 1.
9.660, 2.
9.700, 1.
9.740, 0.
9.780, 1.
9.820, 0.
9.860, 0.
9.900, 0.
9.940, 0.
9.980, 0.
10.020, 0.
10.060, 0.
10.100, 0.
10.130, 0.
#ENDOFDATA   :

File: Inner Shell 2 200x.txt
#FORMAT      : EMSA/MAS Spectral Data File
#VERSION     : 1.0
#TITLE       : Inner Shell 2 200x
#DATE        : 13-OCT-2009
#TIME        : 14:34
#OWNER       :
#NPOINTS     : 1024.
#NCOLUMNS    : 1.
#XUNITS      : keV
#YUNITS      : counts
#DATATYPE    : XY
#XPERCHAN    : 0.0100000
#OFFSET      : -0.100000
#SIGNALTYPE  : EDS
#CHOFFSET    : 10.0000
#LIVETIME    : 60
#REALTIME    : 61.0628
#BEAMKV      : 20.0000
#PROBECUR    : 0.000000
#MAGCAM      : 94.0000
#XPOSITION mm: 0.0000
#YPOSITION mm: 0.0000
#ZPOSITION mm: 0.0000
##OXINSTELEMS: 6,8,11,13,14,19,20
##OXINSTLABEL: 6, 0.277, C
##OXINSTLABEL: 19, 3.314, K
##OXINSTLABEL: 19, 3.590, K
##OXINSTLABEL: 19, 0.262, K
##OXINSTLABEL: 8, 0.525, O
##OXINSTLABEL: 14, 1.740, Si
##OXINSTLABEL: 11, 1.041, Na
##OXINSTLABEL: 20, 3.692, Ca
##OXINSTLABEL: 20, 4.013, Ca
##OXINSTLABEL: 20, 0.341, Ca
##OXINSTLABEL: 20, 0.306, Ca
##OXINSTLABEL: 13, 1.487, Al
#SPECTRUM    : Spectral Data Starts Here
-0.100, 0.
-0.060, 110.
-0.020, 742.
0.020, 1498.
0.060, 1071.
0.100, 150.
0.140, 8.
0.180, 7.
0.220, 26.
0.260, 58.
0.300, 28.
0.340, 11.
0.380, 8.
0.420, 23.
0.460, 88.
0.500, 263.
0.540, 216.
0.580, 59.
0.620, 10.
0.660, 3.
0.700, 4.
0.740, 6.
0.780, 6.
0.820, 6.
0.860, 7.
0.900, 7.
0.940, 13.
0.980, 16.
1.020, 22.
1.060, 26.
1.100, 16.
1.140, 12.
1.180, 11.
1.220, 10.
1.260, 11.
1.300, 11.
1.340, 7.
1.380, 7.
1.420, 10.
1.460, 19.
1.500, 23.
1.540, 15.
1.580, 11.
1.620, 25.
1.660, 107.
1.700, 421.
1.740, 619.
1.780, 436.
1.820, 129.
1.860, 36.
1.900, 15.
1.940, 6.
1.980, 5.
2.020, 9.
2.060, 7.
2.100, 4.
2.140, 4.
2.180, 6.
2.220, 5.
2.260, 7.
2.300, 8.
2.340, 5.
2.380, 7.
2.420, 5.
2.460, 7.
2.500, 7.
2.540, 8.
2.580, 8.
2.620, 7.
2.660, 8.
2.700, 6.
2.740, 3.
2.780, 4.
2.820, 5.
2.860, 6.
2.900, 5.
2.940, 4.
2.980, 7.
3.020, 4.
3.060, 4.
3.100, 2.
3.140, 4.
3.180, 4.
3.220, 5.
3.260, 3.
3.300, 8.
3.340, 13.
3.380, 8.
3.420, 8.
3.460, 6.
3.500, 6.
3.540, 6.
3.580, 8.
3.620, 8.
3.660, 18.
3.700, 16.
3.740, 7.
3.780, 7.
3.820, 4.
3.860, 7.
3.900, 4.
3.940, 3.
3.980, 6.
4.020, 6.
4.060, 6.
4.100, 4.
4.140, 8.
4.180, 3.
4.220, 5.
4.260, 2.
4.300, 3.
4.340, 5.
4.380, 5.
4.420, 4.
4.460, 2.
4.500, 8.
4.540, 2.
4.580, 2.
4.620, 2.
4.660, 3.
4.700, 3.
4.740, 5.
4.780, 1.
4.820, 3.
4.860, 4.
4.900, 3.
4.940, 3.
4.980, 3.
5.020, 4.
5.060, 2.
5.100, 3.
5.140, 4.
5.180, 3.
5.220, 4.
5.260, 4.
5.300, 4.
5.340, 2.
5.380, 4.
5.420, 2.
5.460, 3.
5.500, 2.
5.540, 5.
5.580, 2.
5.620, 2.
5.660, 1.
5.700, 1.
5.740, 2.
5.780, 3.
5.820, 2.
5.860, 2.
5.900, 4.
5.940, 2.
5.980, 3.
6.020, 0.
6.060, 3.
6.100, 4.
6.140, 3.
6.180, 4.
6.220, 3.
6.260, 3.
6.300, 1.
6.340, 7.
6.380, 3.
6.420, 6.
6.460, 3.
6.500, 4.
6.540, 2.
6.580, 1.
6.620, 3.
6.660, 4.
6.700, 3.
6.740, 3.
6.780, 3.
6.820, 2.
6.860, 3.
6.900, 3.
6.940, 1.
6.980, 4.
7.020, 3.
7.060, 2.
7.100, 2.
7.140, 1.
7.180, 2.
7.220, 1.
7.260, 0.
7.300, 3.
7.340, 2.
7.380, 2.
7.420, 1.
7.460, 1.
7.500, 2.
7.540, 1.
7.580, 1.
7.620, 1.
7.660, 1.
7.700, 2.
7.740, 2.
7.780, 1.
7.820, 5.
7.860, 3.
7.900, 1.
7.940, 6.
7.980, 3.
8.020, 5.
8.060, 8.
8.100, 4.
8.140, 3.
8.180, 2.
8.220, 2.
8.260, 1.
8.300, 4.
8.340, 1.
8.380, 1.
8.420, 1.
8.460, 0.
8.500, 1.
8.540, 1.
8.580, 1.
8.620, 1.
8.660, 2.
8.700, 0.
8.740, 3.
8.780, 0.
8.820, 1.
8.860, 1.
8.900, 2.
8.940, 1.
8.980, 1.
9.020, 2.
9.060, 0.
9.100, 1.
9.140, 1.
9.180, 0.
9.220, 3.
9.260, 0.
9.300, 1.
9.340, 1.
9.380, 2.
9.420, 0.
9.460, 2.
9.500, 0.
9.540, 0.
9.580, 0.
9.620, 0.
9.660, 1.
9.700, 1.
9.740, 1.
9.780, 1.
9.820, 0.
9.860, 0.
9.900, 0.
9.940, 0.
9.980, 0.
10.020, 0.
10.060, 0.
10.100, 0.
10.130, 0.
#ENDOFDATA   :

File: Inner Shell 3 24000x.txt
#FORMAT      : EMSA/MAS Spectral Data File
#VERSION     : 1.0
#TITLE       : Inner Shell 3 24000x
#DATE        : 13-OCT-2009
#TIME        : 14:36
#OWNER       :
#NPOINTS     : 1024.
#NCOLUMNS    : 1.
#XUNITS      : keV
#YUNITS      : counts
#DATATYPE    : XY
#XPERCHAN    : 0.0100000
#OFFSET      : -0.100000
#SIGNALTYPE  : EDS
#CHOFFSET    : 10.0000
#LIVETIME    : 60
#REALTIME    : 61.2079
#BEAMKV      : 20.0000
#PROBECUR    : 0.000000
#MAGCAM      : 11361.0
#XPOSITION mm: 0.0000
#YPOSITION mm: 0.0000
#ZPOSITION mm: 0.0000
##OXINSTELEMS: 6,8,14,20
##OXINSTLABEL: 14, 1.740, Si
##OXINSTLABEL: 8, 0.525, O
##OXINSTLABEL: 6, 0.277, C
##OXINSTLABEL: 20, 3.692, Ca
##OXINSTLABEL: 20, 4.013, Ca
##OXINSTLABEL: 20, 0.341, Ca
##OXINSTLABEL: 20, 0.306, Ca
#SPECTRUM    : Spectral Data Starts Here
-0.100, 0.
-0.060, 106.
-0.020, 733.
0.020, 1508.
0.060, 999.
0.100, 149.
0.140, 7.
0.180, 10.
0.220, 30.
0.260, 51.
0.300, 35.
0.340, 13.
0.380, 7.
0.420, 26.
0.460, 136.
0.500, 334.
0.540, 306.
0.580, 82.
0.620, 10.
0.660, 2.
0.700, 3.
0.740, 6.
0.780, 9.
0.820, 6.
0.860, 4.
0.900, 10.
0.940, 15.
0.980, 10.
1.020, 15.
1.060, 10.
1.100, 6.
1.140, 10.
1.180, 10.
1.220, 9.
1.260, 15.
1.300, 9.
1.340, 13.
1.380, 10.
1.420, 14.
1.460, 18.
1.500, 28.
1.540, 24.
1.580, 22.
1.620, 36.
1.660, 158.
1.700, 586.
1.740, 911.
1.780, 645.
1.820, 208.
1.860, 57.
1.900, 14.
1.940, 11.
1.980, 8.
2.020, 6.
2.060, 9.
2.100, 5.
2.140, 7.
2.180, 6.
2.220, 11.
2.260, 7.
2.300, 6.
2.340, 7.
2.380, 7.
2.420, 9.
2.460, 6.
2.500, 8.
2.540, 8.
2.580, 8.
2.620, 6.
2.660, 9.
2.700, 9.
2.740, 6.
2.780, 8.
2.820, 4.
2.860, 5.
2.900, 9.
2.940, 5.
2.980, 5.
3.020, 4.
3.060, 5.
3.100, 4.
3.140, 6.
3.180, 7.
3.220, 5.
3.260, 8.
3.300, 8.
3.340, 8.
3.380, 4.
3.420, 7.
3.460, 4.
3.500, 7.
3.540, 8.
3.580, 6.
3.620, 9.
3.660, 10.
3.700, 15.
3.740, 10.
3.780, 8.
3.820, 5.
3.860, 7.
3.900, 5.
3.940, 3.
3.980, 6.
4.020, 4.
4.060, 4.
4.100, 4.
4.140, 4.
4.180, 3.
4.220, 5.
4.260, 4.
4.300, 4.
4.340, 4.
4.380, 2.
4.420, 4.
4.460, 3.
4.500, 3.
4.540, 2.
4.580, 5.
4.620, 4.
4.660, 2.
4.700, 1.
4.740, 4.
4.780, 4.
4.820, 3.
4.860, 2.
4.900, 7.
4.940, 5.
4.980, 3.
5.020, 4.
5.060, 5.
5.100, 5.
5.140, 4.
5.180, 6.
5.220, 4.
5.260, 4.
5.300, 3.
5.340, 1.
5.380, 5.
5.420, 3.
5.460, 2.
5.500, 2.
5.540, 2.
5.580, 2.
5.620, 3.
5.660, 1.
5.700, 3.
5.740, 5.
5.780, 3.
5.820, 2.
5.860, 4.
5.900, 1.
5.940, 5.
5.980, 2.
6.020, 2.
6.060, 2.
6.100, 2.
6.140, 4.
6.180, 5.
6.220, 4.
6.260, 2.
6.300, 4.
6.340, 4.
6.380, 4.
6.420, 3.
6.460, 4.
6.500, 0.
6.540, 2.
6.580, 1.
6.620, 4.
6.660, 4.
6.700, 3.
6.740, 1.
6.780, 1.
6.820, 2.
6.860, 0.
6.900, 1.
6.940, 1.
6.980, 2.
7.020, 2.
7.060, 3.
7.100, 1.
7.140, 3.
7.180, 1.
7.220, 2.
7.260, 1.
7.300, 1.
7.340, 3.
7.380, 4.
7.420, 2.
7.460, 1.
7.500, 1.
7.540, 1.
7.580, 2.
7.620, 3.
7.660, 2.
7.700, 2.
7.740, 2.
7.780, 1.
7.820, 2.
7.860, 1.
7.900, 2.
7.940, 1.
7.980, 2.
8.020, 4.
8.060, 5.
8.100, 2.
8.140, 2.
8.180, 0.
8.220, 2.
8.260, 2.
8.300, 0.
8.340, 0.
8.380, 1.
8.420, 1.
8.460, 1.
8.500, 4.
8.540, 1.
8.580, 0.
8.620, 1.
8.660, 2.
8.700, 2.
8.740, 1.
8.780, 3.
8.820, 1.
8.860, 1.
8.900, 1.
8.940, 1.
8.980, 0.
9.020, 1.
9.060, 1.
9.100, 1.
9.140, 1.
9.180, 1.
9.220, 3.
9.260, 3.
9.300, 2.
9.340, 2.
9.380, 2.
9.420, 2.
9.460, 1.
9.500, 0.
9.540, 0.
9.580, 2.
9.620, 1.
9.660, 1.
9.700, 0.
9.740, 1.
9.780, 1.
9.820, 0.
9.860, 0.
9.900, 0.
9.940, 0.
9.980, 0.
10.020, 0.
10.060, 0.
10.100, 0.
10.130, 0.
#ENDOFDATA   :

File: Outer Shell Bulk 500x.txt
#FORMAT      : EMSA/MAS Spectral Data File
#VERSION     : 1.0
#TITLE       : Outer Shell Bulk 500x
#DATE        : 13-OCT-2009
#TIME        : 14:09
#OWNER       :
#NPOINTS     : 1024.
#NCOLUMNS    : 1.
#XUNITS      : keV
#YUNITS      : counts
#DATATYPE    : XY
#XPERCHAN    : 0.0100000
#OFFSET      : -0.100000
#SIGNALTYPE  : EDS
#CHOFFSET    : 10.0000
#LIVETIME    : 60
#REALTIME    : 61.1112
#BEAMKV      : 20.0000
#PROBECUR    : 0.000000
#MAGCAM      : 237.000
#XPOSITION mm: 0.0000
#YPOSITION mm: 0.0000
#ZPOSITION mm: 0.0000
##OXINSTELEMS: 6,8,13,14,17,20,29
##OXINSTLABEL: 14, 1.740, Si
##OXINSTLABEL: 8, 0.525, O
##OXINSTLABEL: 29, 8.048, Cu
##OXINSTLABEL: 29, 8.905, Cu
##OXINSTLABEL: 29, 0.930, Cu
##OXINSTLABEL: 29, 0.832, Cu
##OXINSTLABEL: 29, 0.811, Cu
##OXINSTLABEL: 6, 0.277, C
##OXINSTLABEL: 17, 2.622, Cl
##OXINSTLABEL: 17, 2.816, Cl
##OXINSTLABEL: 17, 0.184, Cl
##OXINSTLABEL: 20, 3.692, Ca
##OXINSTLABEL: 20, 4.013, Ca
##OXINSTLABEL: 20, 0.341, Ca
##OXINSTLABEL: 20, 0.306, Ca
##OXINSTLABEL: 13, 1.487, Al
#SPECTRUM    : Spectral Data Starts Here
-0.100, 0.
-0.060, 88.
-0.020, 779.
0.020, 1601.
0.060, 1108.
0.100, 158.
0.140, 6.
0.180, 5.
0.220, 18.
0.260, 32.
0.300, 30.
0.340, 7.
0.380, 4.
0.420, 19.
0.460, 92.
0.500, 283.
0.540, 261.
0.580, 69.
0.620, 7.
0.660, 5.
0.700, 3.
0.740, 4.
0.780, 9.
0.820, 9.
0.860, 10.
0.900, 30.
0.940, 40.
0.980, 25.
1.020, 21.
1.060, 13.
1.100, 10.
1.140, 8.
1.180, 13.
1.220, 7.
1.260, 8.
1.300, 7.
1.340, 6.
1.380, 14.
1.420, 11.
1.460, 18.
1.500, 23.
1.540, 18.
1.580, 17.
1.620, 27.
1.660, 110.
1.700, 374.
1.740, 620.
1.780, 443.
1.820, 115.
1.860, 34.
1.900, 12.
1.940, 5.
1.980, 8.
2.020, 6.
2.060, 8.
2.100, 4.
2.140, 3.
2.180, 8.
2.220, 8.
2.260, 7.
2.300, 10.
2.340, 10.
2.380, 11.
2.420, 7.
2.460, 7.
2.500, 4.
2.540, 8.
2.580, 19.
2.620, 22.
2.660, 17.
2.700, 7.
2.740, 5.
2.780, 5.
2.820, 10.
2.860, 5.
2.900, 4.
2.940, 9.
2.980, 6.
3.020, 3.
3.060, 6.
3.100, 6.
3.140, 9.
3.180, 6.
3.220, 7.
3.260, 9.
3.300, 9.
3.340, 9.
3.380, 3.
3.420, 4.
3.460, 5.
3.500, 4.
3.540, 7.
3.580, 7.
3.620, 6.
3.660, 10.
3.700, 10.
3.740, 8.
3.780, 6.
3.820, 4.
3.860, 6.
3.900, 4.
3.940, 4.
3.980, 7.
4.020, 6.
4.060, 5.
4.100, 4.
4.140, 7.
4.180, 5.
4.220, 4.
4.260, 3.
4.300, 3.
4.340, 3.
4.380, 5.
4.420, 5.
4.460, 5.
4.500, 4.
4.540, 5.
4.580, 6.
4.620, 5.
4.660, 5.
4.700, 4.
4.740, 5.
4.780, 3.
4.820, 3.
4.860, 5.
4.900, 2.
4.940, 2.
4.980, 4.
5.020, 4.
5.060, 3.
5.100, 5.
5.140, 5.
5.180, 3.
5.220, 4.
5.260, 6.
5.300, 3.
5.340, 4.
5.380, 5.
5.420, 4.
5.460, 3.
5.500, 4.
5.540, 3.
5.580, 4.
5.620, 2.
5.660, 1.
5.700, 1.
5.740, 5.
5.780, 3.
5.820, 2.
5.860, 3.
5.900, 3.
5.940, 1.
5.980, 3.
6.020, 2.
6.060, 2.
6.100, 1.
6.140, 1.
6.180, 3.
6.220, 2.
6.260, 2.
6.300, 2.
6.340, 3.
6.380, 1.
6.420, 3.
6.460, 2.
6.500, 2.
6.540, 5.
6.580, 3.
6.620, 3.
6.660, 1.
6.700, 2.
6.740, 1.
6.780, 1.
6.820, 3.
6.860, 4.
6.900, 1.
6.940, 2.
6.980, 2.
7.020, 3.
7.060, 0.
7.100, 2.
7.140, 2.
7.180, 2.
7.220, 2.
7.260, 1.
7.300, 0.
7.340, 3.
7.380, 1.
7.420, 4.
7.460, 1.
7.500, 1.
7.540, 0.
7.580, 2.
7.620, 1.
7.660, 1.
7.700, 4.
7.740, 1.
7.780, 1.
7.820, 1.
7.860, 3.
7.900, 8.
7.940, 10.
7.980, 22.
8.020, 20.
8.060, 14.
8.100, 13.
8.140, 6.
8.180, 1.
8.220, 0.
8.260, 2.
8.300, 2.
8.340, 2.
8.380, 2.
8.420, 1.
8.460, 2.
8.500, 2.
8.540, 0.
8.580, 0.
8.620, 2.
8.660, 1.
8.700, 3.
8.740, 1.
8.780, 2.
8.820, 1.
8.860, 5.
8.900, 5.
8.940, 3.
8.980, 1.
9.020, 3.
9.060, 3.
9.100, 1.
9.140, 1.
9.180, 3.
9.220, 1.
9.260, 2.
9.300, 3.
9.340, 1.
9.380, 1.
9.420, 2.
9.460, 1.
9.500, 1.
9.540, 1.
9.580, 1.
9.620, 1.
9.660, 0.
9.700, 2.
9.740, 0.
9.780, 1.
9.820, 1.
9.860, 0.
9.900, 0.
9.940, 0.
9.980, 0.
10.020, 0.
10.060, 0.
10.100, 0.
10.130, 0.
#ENDOFDATA   :

File: Outer Shell Pore 2.txt
#FORMAT      : EMSA/MAS Spectral Data File
#VERSION     : 1.0
#TITLE       : Outer Shell Pore 2
#DATE        : 13-OCT-2009
#TIME        : 14:21
#OWNER       :
#NPOINTS     : 1024.
#NCOLUMNS    : 1.
#XUNITS      : keV
#YUNITS      : counts
#DATATYPE    : XY
#XPERCHAN    : 0.0100000
#OFFSET      : -0.100000
#SIGNALTYPE  : EDS
#CHOFFSET    : 10.0000
#LIVETIME    : 60
#REALTIME    : 60.9467
#BEAMKV      : 20.0000
#PROBECUR    : 0.000000
#MAGCAM      : 4734.00
#XPOSITION mm: 0.0000
#YPOSITION mm: 0.0000
#ZPOSITION mm: 0.0000
##OXINSTELEMS: 6,8,11,13,14,16,17,19,20,26,29
##OXINSTLABEL: 6, 0.277, C
##OXINSTLABEL: 8, 0.525, O
##OXINSTLABEL: 14, 1.740, Si
##OXINSTLABEL: 20, 3.692, Ca
##OXINSTLABEL: 20, 4.013, Ca
##OXINSTLABEL: 20, 0.341, Ca
##OXINSTLABEL: 20, 0.306, Ca
##OXINSTLABEL: 13, 1.487, Al
##OXINSTLABEL: 16, 2.308, S
##OXINSTLABEL: 16, 2.464, S
##OXINSTLABEL: 11, 1.041, Na
##OXINSTLABEL: 17, 2.622, Cl
##OXINSTLABEL: 17, 2.816, Cl
##OXINSTLABEL: 17, 0.184, Cl
##OXINSTLABEL: 26, 6.404, Fe
##OXINSTLABEL: 26, 7.058, Fe
##OXINSTLABEL: 26, 0.705, Fe
##OXINSTLABEL: 26, 0.628, Fe
##OXINSTLABEL: 29, 8.048, Cu
##OXINSTLABEL: 29, 8.905, Cu
##OXINSTLABEL: 29, 0.930, Cu
##OXINSTLABEL: 29, 0.832, Cu
##OXINSTLABEL: 29, 0.811, Cu
##OXINSTLABEL: 19, 3.314, K
##OXINSTLABEL: 19, 3.590, K
##OXINSTLABEL: 19, 0.262, K
#SPECTRUM    : Spectral Data Starts Here
-0.100, 0.
-0.060, 105.
-0.020, 740.
0.020, 1534.
0.060, 1060.
0.100, 146.
0.140, 5.
0.180, 7.
0.220, 34.
0.260, 67.
0.300, 37.
0.340, 6.
0.380, 3.
0.420, 14.
0.460, 47.
0.500, 134.
0.540, 135.
0.580, 32.
0.620, 8.
0.660, 3.
0.700, 3.
0.740, 7.
0.780, 3.
0.820, 3.
0.860, 8.
0.900, 9.
0.940, 14.
0.980, 15.
1.020, 36.
1.060, 21.
1.100, 10.
1.140, 6.
1.180, 7.
1.220, 6.
1.260, 12.
1.300, 4.
1.340, 9.
1.380, 7.
1.420, 15.
1.460, 24.
1.500, 28.
1.540, 19.
1.580, 7.
1.620, 11.
1.660, 44.
1.700, 146.
1.740, 245.
1.780, 135.
1.820, 50.
1.860, 13.
1.900, 8.
1.940, 5.
1.980, 5.
2.020, 4.
2.060, 8.
2.100, 2.
2.140, 6.
2.180, 4.
2.220, 7.
2.260, 11.
2.300, 16.
2.340, 15.
2.380, 7.
2.420, 5.
2.460, 4.
2.500, 5.
2.540, 6.
2.580, 9.
2.620, 20.
2.660, 16.
2.700, 13.
2.740, 2.
2.780, 5.
2.820, 5.
2.860, 7.
2.900, 2.
2.940, 3.
2.980, 6.
3.020, 1.
3.060, 4.
3.100, 3.
3.140, 6.
3.180, 5.
3.220, 4.
3.260, 5.
3.300, 8.
3.340, 8.
3.380, 7.
3.420, 5.
3.460, 5.
3.500, 7.
3.540, 6.
3.580, 7.
3.620, 27.
3.660, 57.
3.700, 62.
3.740, 32.
3.780, 17.
3.820, 6.
3.860, 2.
3.900, 3.
3.940, 8.
3.980, 9.
4.020, 10.
4.060, 9.
4.100, 7.
4.140, 6.
4.180, 2.
4.220, 2.
4.260, 5.
4.300, 3.
4.340, 3.
4.380, 4.
4.420, 4.
4.460, 4.
4.500, 6.
4.540, 3.
4.580, 2.
4.620, 2.
4.660, 1.
4.700, 2.
4.740, 2.
4.780, 3.
4.820, 3.
4.860, 2.
4.900, 5.
4.940, 2.
4.980, 2.
5.020, 3.
5.060, 4.
5.100, 2.
5.140, 2.
5.180, 4.
5.220, 2.
5.260, 1.
5.300, 4.
5.340, 3.
5.380, 2.
5.420, 1.
5.460, 3.
5.500, 3.
5.540, 3.
5.580, 1.
5.620, 1.
5.660, 2.
5.700, 0.
5.740, 4.
5.780, 1.
5.820, 1.
5.860, 3.
5.900, 1.
5.940, 2.
5.980, 3.
6.020, 2.
6.060, 2.
6.100, 3.
6.140, 2.
6.180, 2.
6.220, 4.
6.260, 1.
6.300, 6.
6.340, 3.
6.380, 4.
6.420, 6.
6.460, 5.
6.500, 1.
6.540, 2.
6.580, 1.
6.620, 3.
6.660, 1.
6.700, 1.
6.740, 2.
6.780, 1.
6.820, 1.
6.860, 2.
6.900, 2.
6.940, 2.
6.980, 2.
7.020, 2.
7.060, 1.
7.100, 2.
7.140, 2.
7.180, 1.
7.220, 1.
7.260, 1.
7.300, 1.
7.340, 1.
7.380, 1.
7.420, 2.
7.460, 0.
7.500, 1.
7.540, 0.
7.580, 3.
7.620, 2.
7.660, 0.
7.700, 1.
7.740, 2.
7.780, 1.
7.820, 0.
7.860, 2.
7.900, 1.
7.940, 3.
7.980, 6.
8.020, 5.
8.060, 4.
8.100, 5.
8.140, 3.
8.180, 0.
8.220, 0.
8.260, 2.
8.300, 0.
8.340, 0.
8.380, 2.
8.420, 1.
8.460, 1.
8.500, 1.
8.540, 3.
8.580, 2.
8.620, 2.
8.660, 1.
8.700, 0.
8.740, 2.
8.780, 2.
8.820, 1.
8.860, 2.
8.900, 1.
8.940, 1.
8.980, 1.
9.020, 2.
9.060, 2.
9.100, 2.
9.140, 1.
9.180, 0.
9.220, 1.
9.260, 2.
9.300, 0.
9.340, 0.
9.380, 1.
9.420, 1.
9.460, 1.
9.500, 1.
9.540, 2.
9.580, 2.
9.620, 2.
9.660, 0.
9.700, 1.
9.740, 0.
9.780, 1.
9.820, 1.
9.860, 0.
9.900, 0.
9.940, 0.
9.980, 0.
10.020, 0.
10.060, 0.
10.100, 0.
10.130, 0.
#ENDOFDATA   :

File: Outer Shell Pore 9000x.txt
#FORMAT      : EMSA/MAS Spectral Data File
#VERSION     : 1.0
#TITLE       : Outer Shell Pore 9000x
#DATE        : 13-OCT-2009
#TIME        : 14:12
#OWNER       :
#NPOINTS     : 1024.
#NCOLUMNS    : 1.
#XUNITS      : keV
#YUNITS      : counts
#DATATYPE    : XY
#XPERCHAN    : 0.0100000
#OFFSET      : -0.100000
#SIGNALTYPE  : EDS
#CHOFFSET    : 10.0000
#LIVETIME    : 60
#REALTIME    : 60.9828
#BEAMKV      : 20.0000
#PROBECUR    : 0.000000
#MAGCAM      : 4314.00
#XPOSITION mm: 0.0000
#YPOSITION mm: 0.0000
#ZPOSITION mm: 0.0000
##OXINSTELEMS: 6,8,13,14,17,20,29
##OXINSTLABEL: 8, 0.525, O
##OXINSTLABEL: 14, 1.740, Si
##OXINSTLABEL: 6, 0.277, C
##OXINSTLABEL: 17, 2.622, Cl
##OXINSTLABEL: 17, 2.816, Cl
##OXINSTLABEL: 17, 0.184, Cl
##OXINSTLABEL: 29, 8.048, Cu
##OXINSTLABEL: 29, 8.905, Cu
##OXINSTLABEL: 29, 0.930, Cu
##OXINSTLABEL: 29, 0.832, Cu
##OXINSTLABEL: 29, 0.811, Cu
##OXINSTLABEL: 20, 3.692, Ca
##OXINSTLABEL: 20, 4.013, Ca
##OXINSTLABEL: 20, 0.341, Ca
##OXINSTLABEL: 20, 0.306, Ca
##OXINSTLABEL: 13, 1.487, Al
#SPECTRUM    : Spectral Data Starts Here
-0.100, 0.
-0.060, 91.
-0.020, 749.
0.020, 1515.
0.060, 1071.
0.100, 171.
0.140, 5.
0.180, 6.
0.220, 33.
0.260, 58.
0.300, 23.
0.340, 9.
0.380, 4.
0.420, 19.
0.460, 68.
0.500, 191.
0.540, 185.
0.580, 51.
0.620, 6.
0.660, 4.
0.700, 4.
0.740, 5.
0.780, 5.
0.820, 8.
0.860, 6.
0.900, 14.
0.940, 22.
0.980, 13.
1.020, 13.
1.060, 15.
1.100, 8.
1.140, 5.
1.180, 9.
1.220, 10.
1.260, 10.
1.300, 6.
1.340, 8.
1.380, 10.
1.420, 12.
1.460, 21.
1.500, 21.
1.540, 17.
1.580, 16.
1.620, 25.
1.660, 105.
1.700, 395.
1.740, 635.
1.780, 399.
1.820, 134.
1.860, 31.
1.900, 11.
1.940, 7.
1.980, 6.
2.020, 6.
2.060, 7.
2.100, 7.
2.140, 7.
2.180, 3.
2.220, 5.
2.260, 6.
2.300, 12.
2.340, 7.
2.380, 9.
2.420, 6.
2.460, 10.
2.500, 6.
2.540, 6.
2.580, 14.
2.620, 21.
2.660, 15.
2.700, 11.
2.740, 6.
2.780, 8.
2.820, 4.
2.860, 7.
2.900, 5.
2.940, 6.
2.980, 5.
3.020, 6.
3.060, 4.
3.100, 3.
3.140, 6.
3.180, 7.
3.220, 4.
3.260, 3.
3.300, 8.
3.340, 7.
3.380, 5.
3.420, 12.
3.460, 3.
3.500, 5.
3.540, 5.
3.580, 6.
3.620, 6.
3.660, 12.
3.700, 15.
3.740, 9.
3.780, 8.
3.820, 5.
3.860, 5.
3.900, 3.
3.940, 5.
3.980, 3.
4.020, 3.
4.060, 2.
4.100, 5.
4.140, 3.
4.180, 5.
4.220, 5.
4.260, 5.
4.300, 5.
4.340, 4.
4.380, 5.
4.420, 4.
4.460, 3.
4.500, 5.
4.540, 3.
4.580, 3.
4.620, 3.
4.660, 1.
4.700, 4.
4.740, 4.
4.780, 2.
4.820, 2.
4.860, 3.
4.900, 2.
4.940, 3.
4.980, 4.
5.020, 2.
5.060, 2.
5.100, 4.
5.140, 3.
5.180, 4.
5.220, 4.
5.260, 2.
5.300, 7.
5.340, 3.
5.380, 3.
5.420, 3.
5.460, 4.
5.500, 3.
5.540, 2.
5.580, 3.
5.620, 1.
5.660, 3.
5.700, 3.
5.740, 5.
5.780, 1.
5.820, 2.
5.860, 3.
5.900, 1.
5.940, 2.
5.980, 3.
6.020, 3.
6.060, 6.
6.100, 3.
6.140, 2.
6.180, 4.
6.220, 2.
6.260, 1.
6.300, 3.
6.340, 1.
6.380, 2.
6.420, 3.
6.460, 3.
6.500, 3.
6.540, 2.
6.580, 2.
6.620, 5.
6.660, 3.
6.700, 3.
6.740, 2.
6.780, 3.
6.820, 1.
6.860, 2.
6.900, 1.
6.940, 2.
6.980, 1.
7.020, 0.
7.060, 2.
7.100, 2.
7.140, 2.
7.180, 2.
7.220, 1.
7.260, 2.
7.300, 2.
7.340, 2.
7.380, 0.
7.420, 2.
7.460, 2.
7.500, 1.
7.540, 3.
7.580, 1.
7.620, 2.
7.660, 1.
7.700, 1.
7.740, 1.
7.780, 2.
7.820, 2.
7.860, 2.
7.900, 4.
7.940, 5.
7.980, 11.
8.020, 14.
8.060, 9.
8.100, 9.
8.140, 3.
8.180, 4.
8.220, 1.
8.260, 1.
8.300, 1.
8.340, 1.
8.380, 1.
8.420, 4.
8.460, 3.
8.500, 2.
8.540, 2.
8.580, 1.
8.620, 1.
8.660, 1.
8.700, 1.
8.740, 2.
8.780, 1.
8.820, 2.
8.860, 2.
8.900, 3.
8.940, 4.
8.980, 1.
9.020, 1.
9.060, 2.
9.100, 0.
9.140, 2.
9.180, 3.
9.220, 0.
9.260, 2.
9.300, 0.
9.340, 1.
9.380, 2.
9.420, 1.
9.460, 0.
9.500, 0.
9.540, 1.
9.580, 0.
9.620, 1.
9.660, 1.
9.700, 0.
9.740, 0.
9.780, 0.
9.820, 0.
9.860, 0.
9.900, 0.
9.940, 0.
9.980, 0.
10.020, 0.
10.060, 0.
10.100, 0.
10.130, 0.
#ENDOFDATA   :

File: Tubing 1 2200x.txt
#FORMAT      : EMSA/MAS Spectral Data File
#VERSION     : 1.0
#TITLE       : Tubing 1 2200x
#DATE        : 13-OCT-2009
#TIME        : 14:44
#OWNER       :
#NPOINTS     : 1024.
#NCOLUMNS    : 1.
#XUNITS      : keV
#YUNITS      : counts
#DATATYPE    : XY
#XPERCHAN    : 0.0100000
#OFFSET      : -0.100000
#SIGNALTYPE  : EDS
#CHOFFSET    : 10.0000
#LIVETIME    : 60
#REALTIME    : 61.0846
#BEAMKV      : 20.0000
#PROBECUR    : 0.000000
#MAGCAM      : 1041.00
#XPOSITION mm: 0.0000
#YPOSITION mm: 0.0000
#ZPOSITION mm: 0.0000
##OXINSTELEMS: 6,8,11,13,14
##OXINSTLABEL: 8, 0.525, O
##OXINSTLABEL: 14, 1.740, Si
##OXINSTLABEL: 6, 0.277, C
##OXINSTLABEL: 13, 1.487, Al
##OXINSTLABEL: 11, 1.041, Na
#SPECTRUM    : Spectral Data Starts Here
-0.100, 0.
-0.060, 83.
-0.020, 734.
0.020, 1490.
0.060, 1014.
0.100, 162.
0.140, 9.
0.180, 2.
0.220, 23.
0.260, 40.
0.300, 31.
0.340, 5.
0.380, 12.
0.420, 19.
0.460, 113.
0.500, 250.
0.540, 231.
0.580, 60.
0.620, 4.
0.660, 5.
0.700, 7.
0.740, 3.
0.780, 5.
0.820, 6.
0.860, 10.
0.900, 9.
0.940, 11.
0.980, 14.
1.020, 17.
1.060, 17.
1.100, 14.
1.140, 8.
1.180, 4.
1.220, 12.
1.260, 8.
1.300, 6.
1.340, 6.
1.380, 10.
1.420, 13.
1.460, 26.
1.500, 21.
1.540, 14.
1.580, 17.
1.620, 25.
1.660, 130.
1.700, 496.
1.740, 796.
1.780, 514.
1.820, 156.
1.860, 43.
1.900, 16.
1.940, 8.
1.980, 6.
2.020, 6.
2.060, 6.
2.100, 5.
2.140, 4.
2.180, 3.
2.220, 5.
2.260, 3.
2.300, 3.
2.340, 5.
2.380, 7.
2.420, 10.
2.460, 8.
2.500, 3.
2.540, 5.
2.580, 8.
2.620, 9.
2.660, 7.
2.700, 6.
2.740, 8.
2.780, 5.
2.820, 8.
2.860, 5.
2.900, 4.
2.940, 6.
2.980, 7.
3.020, 8.
3.060, 4.
3.100, 8.
3.140, 5.
3.180, 2.
3.220, 5.
3.260, 8.
3.300, 8.
3.340, 7.
3.380, 8.
3.420, 7.
3.460, 5.
3.500, 3.
3.540, 4.
3.580, 5.
3.620, 8.
3.660, 10.
3.700, 7.
3.740, 7.
3.780, 6.
3.820, 5.
3.860, 4.
3.900, 4.
3.940, 6.
3.980, 7.
4.020, 3.
4.060, 4.
4.100, 5.
4.140, 4.
4.180, 4.
4.220, 2.
4.260, 5.
4.300, 4.
4.340, 3.
4.380, 4.
4.420, 3.
4.460, 2.
4.500, 6.
4.540, 3.
4.580, 2.
4.620, 4.
4.660, 5.
4.700, 3.
4.740, 2.
4.780, 5.
4.820, 1.
4.860, 5.
4.900, 3.
4.940, 5.
4.980, 4.
5.020, 5.
5.060, 5.
5.100, 2.
5.140, 5.
5.180, 4.
5.220, 1.
5.260, 3.
5.300, 3.
5.340, 5.
5.380, 4.
5.420, 3.
5.460, 1.
5.500, 6.
5.540, 3.
5.580, 2.
5.620, 0.
5.660, 4.
5.700, 2.
5.740, 2.
5.780, 2.
5.820, 5.
5.860, 2.
5.900, 4.
5.940, 3.
5.980, 2.
6.020, 4.
6.060, 0.
6.100, 3.
6.140, 3.
6.180, 4.
6.220, 1.
6.260, 1.
6.300, 7.
6.340, 2.
6.380, 6.
6.420, 2.
6.460, 2.
6.500, 3.
6.540, 3.
6.580, 2.
6.620, 3.
6.660, 2.
6.700, 3.
6.740, 2.
6.780, 2.
6.820, 1.
6.860, 1.
6.900, 2.
6.940, 3.
6.980, 4.
7.020, 1.
7.060, 3.
7.100, 2.
7.140, 2.
7.180, 3.
7.220, 4.
7.260, 3.
7.300, 2.
7.340, 2.
7.380, 2.
7.420, 1.
7.460, 2.
7.500, 4.
7.540, 2.
7.580, 1.
7.620, 0.
7.660, 1.
7.700, 1.
7.740, 2.
7.780, 2.
7.820, 1.
7.860, 2.
7.900, 4.
7.940, 3.
7.980, 5.
8.020, 5.
8.060, 5.
8.100, 4.
8.140, 2.
8.180, 6.
8.220, 1.
8.260, 3.
8.300, 2.
8.340, 1.
8.380, 2.
8.420, 1.
8.460, 0.
8.500, 1.
8.540, 2.
8.580, 0.
8.620, 0.
8.660, 1.
8.700, 2.
8.740, 0.
8.780, 1.
8.820, 0.
8.860, 1.
8.900, 1.
8.940, 1.
8.980, 1.
9.020, 2.
9.060, 0.
9.100, 3.
9.140, 1.
9.180, 1.
9.220, 1.
9.260, 2.
9.300, 2.
9.340, 2.
9.380, 0.
9.420, 0.
9.460, 0.
9.500, 2.
9.540, 1.
9.580, 3.
9.620, 1.
9.660, 1.
9.700, 1.
9.740, 3.
9.780, 0.
9.820, 0.
9.860, 0.
9.900, 0.
9.940, 0.
9.980, 0.
10.020, 0.
10.060, 0.
10.100, 0.
10.130, 0.
#ENDOFDATA   :