Folder: 2014_zhang/Figures/10-13-09 ESEM (part 2)

File: Tubing 3 4000x.txt
#FORMAT      : EMSA/MAS Spectral Data File
#VERSION     : 1.0
#TITLE       : Tubing 3 4000x
#DATE        : 13-OCT-2009
#TIME        : 14:58
#OWNER       :
#NPOINTS     : 1024.
#NCOLUMNS    : 1.
#XUNITS      : keV
#YUNITS      : counts
#DATATYPE    : XY
#XPERCHAN    : 0.0100000
#OFFSET      : -0.100000
#SIGNALTYPE  : EDS
#CHOFFSET    : 10.0000
#LIVETIME    : 60
#REALTIME    : 61.3453
#BEAMKV      : 20.0000
#PROBECUR    : 0.000000
#MAGCAM      : 2103.00
#XPOSITION mm: 0.0000
#YPOSITION mm: 0.0000
#ZPOSITION mm: 0.0000
##OXINSTELEMS: 6,8,11,13,14,17,19,29
##OXINSTLABEL: 6, 0.277, C
##OXINSTLABEL: 14, 1.740, Si
##OXINSTLABEL: 8, 0.525, O
##OXINSTLABEL: 11, 1.041, Na
##OXINSTLABEL: 29, 8.048, Cu
##OXINSTLABEL: 29, 8.905, Cu
##OXINSTLABEL: 29, 0.930, Cu
##OXINSTLABEL: 29, 0.832, Cu
##OXINSTLABEL: 29, 0.811, Cu
##OXINSTLABEL: 19, 3.314, K
##OXINSTLABEL: 19, 3.590, K
##OXINSTLABEL: 19, 0.262, K
##OXINSTLABEL: 17, 2.622, Cl
##OXINSTLABEL: 17, 2.816, Cl
##OXINSTLABEL: 17, 0.184, Cl
##OXINSTLABEL: 13, 1.487, Al
#SPECTRUM    : Spectral Data Starts Here
-0.100, 0.
-0.060, 98.
-0.020, 710.
0.020, 1468.
0.060, 1004.
0.100, 149.
0.140, 8.
0.180, 8.
0.220, 11.
0.260, 21.
0.300, 13.
0.340, 9.
0.380, 8.
0.420, 25.
0.460, 173.
0.500, 411.
0.540, 354.
0.580, 89.
0.620, 13.
0.660, 6.
0.700, 5.
0.740, 7.
0.780, 10.
0.820, 7.
0.860, 13.
0.900, 19.
0.940, 19.
0.980, 37.
1.020, 78.
1.060, 74.
1.100, 29.
1.140, 17.
1.180, 8.
1.220, 11.
1.260, 13.
1.300, 14.
1.340, 13.
1.380, 13.
1.420, 13.
1.460, 13.
1.500, 31.
1.540, 20.
1.580, 21.
1.620, 42.
1.660, 188.
1.700, 650.
1.740, 1039.
1.780, 695.
1.820, 198.
1.860, 49.
1.900, 15.
1.940, 8.
1.980, 5.
2.020, 5.
2.060, 9.
2.100, 11.
2.140, 6.
2.180, 7.
2.220, 9.
2.260, 7.
2.300, 12.
2.340, 7.
2.380, 11.
2.420, 12.
2.460, 7.
2.500, 11.
2.540, 9.
2.580, 13.
2.620, 19.
2.660, 7.
2.700, 8.
2.740, 6.
2.780, 11.
2.820, 11.
2.860, 7.
2.900, 11.
2.940, 7.
2.980, 5.
3.020, 6.
3.060, 3.
3.100, 8.
3.140, 4.
3.180, 8.
3.220, 10.
3.260, 7.
3.300, 13.
3.340, 17.
3.380, 11.
3.420, 10.
3.460, 10.
3.500, 8.
3.540, 5.
3.580, 8.
3.620, 9.
3.660, 6.
3.700, 7.
3.740, 7.
3.780, 5.
3.820, 9.
3.860, 6.
3.900, 7.
3.940, 6.
3.980, 5.
4.020, 8.
4.060, 9.
4.100, 7.
4.140, 7.
4.180, 5.
4.220, 6.
4.260, 5.
4.300, 5.
4.340, 5.
4.380, 4.
4.420, 7.
4.460, 5.
4.500, 4.
4.540, 4.
4.580, 2.
4.620, 3.
4.660, 6.
4.700, 7.
4.740, 4.
4.780, 5.
4.820, 6.
4.860, 4.
4.900, 4.
4.940, 4.
4.980, 3.
5.020, 4.
5.060, 5.
5.100, 4.
5.140, 3.
5.180, 2.
5.220, 3.
5.260, 4.
5.300, 5.
5.340, 5.
5.380, 3.
5.420, 3.
5.460, 3.
5.500, 6.
5.540, 3.
5.580, 2.
5.620, 2.
5.660, 3.
5.700, 3.
5.740, 3.
5.780, 5.
5.820, 4.
5.860, 3.
5.900, 3.
5.940, 3.
5.980, 3.
6.020, 3.
6.060, 4.
6.100, 2.
6.140, 7.
6.180, 3.
6.220, 2.
6.260, 3.
6.300, 6.
6.340, 3.
6.380, 6.
6.420, 4.
6.460, 5.
6.500, 2.
6.540, 1.
6.580, 3.
6.620, 2.
6.660, 2.
6.700, 2.
6.740, 4.
6.780, 3.
6.820, 2.
6.860, 3.
6.900, 4.
6.940, 3.
6.980, 3.
7.020, 3.
7.060, 1.
7.100, 0.
7.140, 2.
7.180, 2.
7.220, 3.
7.260, 3.
7.300, 3.
7.340, 4.
7.380, 3.
7.420, 2.
7.460, 4.
7.500, 2.
7.540, 1.
7.580, 4.
7.620, 1.
7.660, 2.
7.700, 5.
7.740, 4.
7.780, 2.
7.820, 2.
7.860, 2.
7.900, 4.
7.940, 4.
7.980, 11.
8.020, 10.
8.060, 9.
8.100, 4.
8.140, 6.
8.180, 2.
8.220, 1.
8.260, 3.
8.300, 2.
8.340, 1.
8.380, 1.
8.420, 4.
8.460, 3.
8.500, 1.
8.540, 3.
8.580, 2.
8.620, 2.
8.660, 2.
8.700, 2.
8.740, 1.
8.780, 1.
8.820, 5.
8.860, 1.
8.900, 1.
8.940, 3.
8.980, 1.
9.020, 2.
9.060, 1.
9.100, 0.
9.140, 0.
9.180, 1.
9.220, 2.
9.260, 0.
9.300, 2.
9.340, 2.
9.380, 1.
9.420, 1.
9.460, 2.
9.500, 1.
9.540, 1.
9.580, 2.
9.620, 1.
9.660, 2.
9.700, 2.
9.740, 0.
9.780, 1.
9.820, 0.
9.860, 0.
9.900, 0.
9.940, 0.
9.980, 0.
10.020, 0.
10.060, 0.
10.100, 0.
10.130, 0.
#ENDOFDATA   :

File: Whole Bead 1 12000x.txt
#FORMAT      : EMSA/MAS Spectral Data File
#VERSION     : 1.0
#TITLE       : Whole Bead 1 12000x
#DATE        : 13-OCT-2009
#TIME        : 15:05
#OWNER       :
#NPOINTS     : 1024.
#NCOLUMNS    : 1.
#XUNITS      : keV
#YUNITS      : counts
#DATATYPE    : XY
#XPERCHAN    : 0.0100000
#OFFSET      : -0.100000
#SIGNALTYPE  : EDS
#CHOFFSET    : 10.0000
#LIVETIME    : 60
#REALTIME    : 61.3012
#BEAMKV      : 20.0000
#PROBECUR    : 0.000000
#MAGCAM      : 5680.00
#XPOSITION mm: 0.0000
#YPOSITION mm: 0.0000
#ZPOSITION mm: 0.0000
##OXINSTELEMS: 6,8,11,12,13,14,16,17,19,20,26,29
##OXINSTLABEL: 8, 0.525, O
##OXINSTLABEL: 14, 1.740, Si
##OXINSTLABEL: 6, 0.277, C
##OXINSTLABEL: 13, 1.487, Al
##OXINSTLABEL: 20, 3.692, Ca
##OXINSTLABEL: 20, 4.013, Ca
##OXINSTLABEL: 20, 0.341, Ca
##OXINSTLABEL: 20, 0.306, Ca
##OXINSTLABEL: 11, 1.041, Na
##OXINSTLABEL: 16, 2.308, S
##OXINSTLABEL: 16, 2.464, S
##OXINSTLABEL: 19, 3.314, K
##OXINSTLABEL: 19, 3.590, K
##OXINSTLABEL: 19, 0.262, K
##OXINSTLABEL: 17, 2.622, Cl
##OXINSTLABEL: 17, 2.816, Cl
##OXINSTLABEL: 17, 0.184, Cl
##OXINSTLABEL: 12, 1.254, Mg
##OXINSTLABEL: 29, 8.048, Cu
##OXINSTLABEL: 29, 8.905, Cu
##OXINSTLABEL: 29, 0.930, Cu
##OXINSTLABEL: 29, 0.832, Cu
##OXINSTLABEL: 29, 0.811, Cu
##OXINSTLABEL: 26, 6.404, Fe
##OXINSTLABEL: 26, 7.058, Fe
##OXINSTLABEL: 26, 0.705, Fe
##OXINSTLABEL: 26, 0.628, Fe
#SPECTRUM    : Spectral Data Starts Here
-0.100, 0.
-0.060, 101.
-0.020, 701.
0.020, 1401.
0.060, 1006.
0.100, 174.
0.140, 12.
0.180, 18.
0.220, 110.
0.260, 231.
0.300, 138.
0.340, 28.
0.380, 16.
0.420, 38.
0.460, 146.
0.500, 362.
0.540, 355.
0.580, 111.
0.620, 15.
0.660, 11.
0.700, 16.
0.740, 16.
0.780, 13.
0.820, 13.
0.860, 21.
0.900, 39.
0.940, 48.
0.980, 44.
1.020, 69.
1.060, 54.
1.100, 35.
1.140, 23.
1.180, 19.
1.220, 24.
1.260, 27.
1.300, 26.
1.340, 16.
1.380, 19.
1.420, 41.
1.460, 96.
1.500, 106.
1.540, 59.
1.580, 31.
1.620, 34.
1.660, 100.
1.700, 371.
1.740, 566.
1.780, 401.
1.820, 126.
1.860, 42.
1.900, 20.
1.940, 24.
1.980, 18.
2.020, 13.
2.060, 19.
2.100, 11.
2.140, 16.
2.180, 14.
2.220, 15.
2.260, 24.
2.300, 31.
2.340, 31.
2.380, 18.
2.420, 16.
2.460, 15.
2.500, 15.
2.540, 20.
2.580, 25.
2.620, 30.
2.660, 26.
2.700, 15.
2.740, 14.
2.780, 7.
2.820, 8.
2.860, 11.
2.900, 9.
2.940, 11.
2.980, 10.
3.020, 13.
3.060, 16.
3.100, 10.
3.140, 7.
3.180, 11.
3.220, 12.
3.260, 23.
3.300, 28.
3.340, 32.
3.380, 23.
3.420, 14.
3.460, 8.
3.500, 14.
3.540, 12.
3.580, 24.
3.620, 55.
3.660, 87.
3.700, 107.
3.740, 70.
3.780, 27.
3.820, 10.
3.860, 10.
3.900, 7.
3.940, 16.
3.980, 16.
4.020, 16.
4.060, 12.
4.100, 10.
4.140, 8.
4.180, 7.
4.220, 10.
4.260, 4.
4.300, 8.
4.340, 7.
4.380, 7.
4.420, 4.
4.460, 5.
4.500, 8.
4.540, 4.
4.580, 6.
4.620, 7.
4.660, 4.
4.700, 5.
4.740, 6.
4.780, 7.
4.820, 2.
4.860, 10.
4.900, 5.
4.940, 6.
4.980, 2.
5.020, 6.
5.060, 5.
5.100, 4.
5.140, 8.
5.180, 4.
5.220, 4.
5.260, 4.
5.300, 4.
5.340, 9.
5.380, 3.
5.420, 4.
5.460, 5.
5.500, 5.
5.540, 5.
5.580, 4.
5.620, 7.
5.660, 7.
5.700, 3.
5.740, 4.
5.780, 5.
5.820, 2.
5.860, 6.
5.900, 6.
5.940, 6.
5.980, 3.
6.020, 4.
6.060, 3.
6.100, 5.
6.140, 4.
6.180, 4.
6.220, 3.
6.260, 5.
6.300, 8.
6.340, 8.
6.380, 12.
6.420, 11.
6.460, 5.
6.500, 6.
6.540, 3.
6.580, 3.
6.620, 2.
6.660, 3.
6.700, 6.
6.740, 1.
6.780, 3.
6.820, 5.
6.860, 2.
6.900, 2.
6.940, 4.
6.980, 3.
7.020, 4.
7.060, 3.
7.100, 4.
7.140, 5.
7.180, 6.
7.220, 3.
7.260, 2.
7.300, 2.
7.340, 5.
7.380, 4.
7.420, 2.
7.460, 3.
7.500, 4.
7.540, 3.
7.580, 3.
7.620, 1.
7.660, 1.
7.700, 3.
7.740, 3.
7.780, 2.
7.820, 2.
7.860, 4.
7.900, 6.
7.940, 13.
7.980, 17.
8.020, 18.
8.060, 15.
8.100, 10.
8.140, 4.
8.180, 4.
8.220, 0.
8.260, 4.
8.300, 1.
8.340, 3.
8.380, 2.
8.420, 1.
8.460, 1.
8.500, 2.
8.540, 3.
8.580, 2.
8.620, 3.
8.660, 1.
8.700, 3.
8.740, 1.
8.780, 3.
8.820, 3.
8.860, 4.
8.900, 5.
8.940, 3.
8.980, 1.
9.020, 3.
9.060, 0.
9.100, 1.
9.140, 2.
9.180, 1.
9.220, 3.
9.260, 3.
9.300, 1.
9.340, 3.
9.380, 3.
9.420, 3.
9.460, 3.
9.500, 1.
9.540, 4.
9.580, 2.
9.620, 2.
9.660, 2.
9.700, 2.
9.740, 2.
9.780, 1.
9.820, 1.
9.860, 0.
9.900, 0.
9.940, 0.
9.980, 0.
10.020, 0.
10.060, 0.
10.100, 0.
10.130, 0.
#ENDOFDATA   :

File: Whole Bead 2 12000x Surface.txt
#FORMAT      : EMSA/MAS Spectral Data File
#VERSION     : 1.0
#TITLE       : Whole Bead 2 12000x Surface
#DATE        : 13-OCT-2009
#TIME        : 15:08
#OWNER       :
#NPOINTS     : 1024.
#NCOLUMNS    : 1.
#XUNITS      : keV
#YUNITS      : counts
#DATATYPE    : XY
#XPERCHAN    : 0.0100000
#OFFSET      : -0.100000
#SIGNALTYPE  : EDS
#CHOFFSET    : 10.0000
#LIVETIME    : 60
#REALTIME    : 61.5364
#BEAMKV      : 20.0000
#PROBECUR    : 0.000000
#MAGCAM      : 7574.00
#XPOSITION mm: 0.0000
#YPOSITION mm: 0.0000
#ZPOSITION mm: 0.0000
##OXINSTELEMS: 6,8,13,14,17,19,20,26,29
##OXINSTLABEL: 8, 0.525, O
##OXINSTLABEL: 14, 1.740, Si
##OXINSTLABEL: 6, 0.277, C
##OXINSTLABEL: 29, 8.048, Cu
##OXINSTLABEL: 29, 8.905, Cu
##OXINSTLABEL: 29, 0.930, Cu
##OXINSTLABEL: 29, 0.832, Cu
##OXINSTLABEL: 29, 0.811, Cu
##OXINSTLABEL: 17, 2.622, Cl
##OXINSTLABEL: 17, 2.816, Cl
##OXINSTLABEL: 17, 0.184, Cl
##OXINSTLABEL: 13, 1.487, Al
##OXINSTLABEL: 19, 3.314, K
##OXINSTLABEL: 19, 3.590, K
##OXINSTLABEL: 19, 0.262, K
##OXINSTLABEL: 20, 3.692, Ca
##OXINSTLABEL: 20, 4.013, Ca
##OXINSTLABEL: 20, 0.341, Ca
##OXINSTLABEL: 20, 0.306, Ca
##OXINSTLABEL: 26, 6.404, Fe
##OXINSTLABEL: 26, 7.058, Fe
##OXINSTLABEL: 26, 0.705, Fe
##OXINSTLABEL: 26, 0.628, Fe
#SPECTRUM    : Spectral Data Starts Here
-0.100, 0.
-0.060, 91.
-0.020, 704.
0.020, 1475.
0.060, 998.
0.100, 145.
0.140, 11.
0.180, 15.
0.220, 48.
0.260, 96.
0.300, 68.
0.340, 23.
0.380, 12.
0.420, 32.
0.460, 162.
0.500, 437.
0.540, 415.
0.580, 111.
0.620, 17.
0.660, 10.
0.700, 13.
0.740, 12.
0.780, 19.
0.820, 17.
0.860, 21.
0.900, 59.
0.940, 82.
0.980, 50.
1.020, 56.
1.060, 46.
1.100, 23.
1.140, 12.
1.180, 18.
1.220, 20.
1.260, 20.
1.300, 18.
1.340, 19.
1.380, 18.
1.420, 28.
1.460, 43.
1.500, 50.
1.540, 38.
1.580, 38.
1.620, 54.
1.660, 163.
1.700, 613.
1.740, 953.
1.780, 652.
1.820, 201.
1.860, 56.
1.900, 24.
1.940, 14.
1.980, 16.
2.020, 14.
2.060, 19.
2.100, 13.
2.140, 10.
2.180, 15.
2.220, 20.
2.260, 23.
2.300, 19.
2.340, 24.
2.380, 12.
2.420, 18.
2.460, 13.
2.500, 19.
2.540, 25.
2.580, 34.
2.620, 46.
2.660, 39.
2.700, 21.
2.740, 11.
2.780, 17.
2.820, 16.
2.860, 13.
2.900, 13.
2.940, 12.
2.980, 9.
3.020, 9.
3.060, 14.
3.100, 11.
3.140, 17.
3.180, 15.
3.220, 13.
3.260, 28.
3.300, 40.
3.340, 35.
3.380, 28.
3.420, 17.
3.460, 10.
3.500, 17.
3.540, 13.
3.580, 20.
3.620, 30.
3.660, 45.
3.700, 45.
3.740, 37.
3.780, 17.
3.820, 10.
3.860, 8.
3.900, 12.
3.940, 10.
3.980, 13.
4.020, 14.
4.060, 11.
4.100, 14.
4.140, 7.
4.180, 4.
4.220, 8.
4.260, 6.
4.300, 7.
4.340, 9.
4.380, 10.
4.420, 9.
4.460, 10.
4.500, 12.
4.540, 10.
4.580, 6.
4.620, 7.
4.660, 5.
4.700, 7.
4.740, 8.
4.780, 10.
4.820, 9.
4.860, 11.
4.900, 5.
4.940, 8.
4.980, 10.
5.020, 7.
5.060, 6.
5.100, 8.
5.140, 6.
5.180, 7.
5.220, 7.
5.260, 4.
5.300, 6.
5.340, 2.
5.380, 8.
5.420, 10.
5.460, 5.
5.500, 5.
5.540, 4.
5.580, 5.
5.620, 5.
5.660, 4.
5.700, 5.
5.740, 4.
5.780, 6.
5.820, 8.
5.860, 6.
5.900, 7.
5.940, 7.
5.980, 6.
6.020, 3.
6.060, 6.
6.100, 3.
6.140, 7.
6.180, 4.
6.220, 5.
6.260, 4.
6.300, 7.
6.340, 11.
6.380, 8.
6.420, 9.
6.460, 7.
6.500, 3.
6.540, 6.
6.580, 4.
6.620, 4.
6.660, 3.
6.700, 6.
6.740, 2.
6.780, 4.
6.820, 4.
6.860, 4.
6.900, 4.
6.940, 5.
6.980, 1.
7.020, 4.
7.060, 3.
7.100, 7.
7.140, 3.
7.180, 3.
7.220, 3.
7.260, 4.
7.300, 1.
7.340, 3.
7.380, 2.
7.420, 2.
7.460, 6.
7.500, 4.
7.540, 2.
7.580, 3.
7.620, 3.
7.660, 3.
7.700, 4.
7.740, 2.
7.780, 3.
7.820, 3.
7.860, 5.
7.900, 10.
7.940, 20.
7.980, 25.
8.020, 38.
8.060, 38.
8.100, 18.
8.140, 7.
8.180, 5.
8.220, 3.
8.260, 6.
8.300, 3.
8.340, 3.
8.380, 4.
8.420, 4.
8.460, 3.
8.500, 4.
8.540, 3.
8.580, 3.
8.620, 1.
8.660, 2.
8.700, 2.
8.740, 6.
8.780, 3.
8.820, 5.
8.860, 7.
8.900, 8.
8.940, 5.
8.980, 4.
9.020, 4.
9.060, 0.
9.100, 4.
9.140, 0.
9.180, 2.
9.220, 2.
9.260, 1.
9.300, 3.
9.340, 2.
9.380, 3.
9.420, 3.
9.460, 4.
9.500, 3.
9.540, 4.
9.580, 1.
9.620, 4.
9.660, 3.
9.700, 1.
9.740, 2.
9.780, 2.
9.820, 0.
9.860, 0.
9.900, 0.
9.940, 0.
9.980, 0.
10.020, 0.
10.060, 0.
10.100, 0.
10.130, 0.
#ENDOFDATA   :